Folder: Sample/Training_final_db

File: Cluster_data.csv
Cement (component 1)(kg in a m^3 mixture),Blast Furnace Slag (component 2)(kg in a m^3 mixture),Fly Ash (component 3)(kg in a m^3 mixture),Water  (component 4)(kg in a m^3 mixture),Superplasticizer (component 5)(kg in a m^3 mixture),Coarse Aggregate  (component 6)(kg in a m^3 mixture),Fine Aggregate (component 7)(kg in a m^3 mixture),Age (day),"Concrete compressive strength(MPa, megapascals) ",cluster
540.0,0.0,0.0,162.0,2.5,1040.0,676.0,28.0,79.99,0
380.0,95.0,0.0,228.0,0.0,932.0,594.0,365.0,43.7,0
427.5,47.5,0.0,228.0,0.0,932.0,594.0,270.0,43.01,0
380.0,95.0,0.0,228.0,0.0,932.0,594.0,90.0,40.56,0
380.0,0.0,0.0,228.0,0.0,932.0,670.0,365.0,52.52,0
304.0,76.0,0.0,228.0,0.0,932.0,670.0,365.0,55.26,0
237.5,237.5,0.0,228.0,0.0,932.0,594.0,28.0,30.08,2
237.5,237.5,0.0,228.0,0.0,932.0,594.0,365.0,39.0,2
237.5,237.5,0.0,228.0,0.0,932.0,594.0,7.0,26.26,2
139.6,209.4,0.0,192.0,0.0,1047.0,806.9,7.0,14.59,2
304.0,76.0,0.0,228.0,0.0,932.0,670.0,270.0,54.38,0
139.6,209.4,0.0,192.0,0.0,1047.0,806.9,360.0,44.7,2
425.0,106.3,0.0,153.5,16.5,852.1,887.1,3.0,33.4,0
531.3,0.0,0.0,141.8,28.2,852.1,893.7,3.0,41.3,0
286.3,200.9,0.0,144.7,11.2,1004.6,803.7,3.0,24.4,2
425.0,106.3,0.0,153.5,16.5,852.1,887.1,7.0,49.2,0
531.3,0.0,0.0,141.8,28.2,852.1,893.7,7.0,46.9,0
286.3,200.9,0.0,144.7,11.2,1004.6,803.7,7.0,38.0,2
313.3,262.2,0.0,175.5,8.6,1046.9,611.8,28.0,59.8,2
388.6,97.1,0.0,157.9,12.1,852.1,925.7,28.0,50.7,0
379.5,151.2,0.0,153.9,15.9,1134.3,605.0,28.0,52.2,0
313.3,262.2,0.0,175.5,8.6,1046.9,611.8,56.0,64.9,2
388.6,97.1,0.0,157.9,12.1,852.1,925.7,56.0,55.2,0
379.5,151.2,0.0,153.9,15.9,1134.3,605.0,56.0,54.9,0
313.3,262.2,0.0,175.5,8.6,1046.9,611.8,91.0,66.6,2
388.6,97.1,0.0,157.9,12.1,852.1,925.7,91.0,57.6,0
286.3,200.9,0.0,144.7,11.2,1004.6,803.7,91.0,76.8,2
222.4,0.0,96.7,189.3,4.5,967.1,870.3,28.0,24.89,1
233.8,0.0,94.6,197.9,4.6,947.0,852.2,56.0,27.66,1
194.7,0.0,100.5,165.6,7.5,1006.4,905.9,100.0,37.34,1
212.1,0.0,121.6,180.3,5.7,1057.6,779.3,3.0,12.47,1
230.0,0.0,118.3,195.5,4.6,1029.4,758.6,14.0,20.08,1
190.3,0.0,125.2,161.9,9.9,1088.1,802.6,28.0,28.47,1
166.1,0.0,163.3,176.5,4.5,1058.6,780.1,56.0,28.63,1
168.0,42.1,163.8,121.8,5.7,1058.7,780.1,100.0,39.23,1
213.8,98.1,24.5,181.7,6.7,1066.0,785.5,3.0,13.18,1
229.7,0.0,118.2,195.2,6.1,1028.1,757.6,14.0,22.32,1
238.1,0.0,94.1,186.7,7.0,949.9,847.0,28.0,30.23,1
250.0,0.0,95.7,187.4,5.5,956.9,861.2,56.0,38.33,1
212.5,0.0,100.4,159.3,8.7,1007.8,903.6,100.0,42.92,1
212.0,0.0,124.8,159.0,7.8,1085.4,799.5,3.0,19.52,1
231.8,0.0,121.6,174.0,6.7,1056.4,778.5,14.0,26.77,1
251.4,0.0,118.3,188.5,5.8,1028.4,757.7,28.0,29.65,1
251.4,0.0,118.3,188.5,6.4,1028.4,757.7,56.0,36.64,1
181.4,0.0,167.0,169.6,7.6,1055.6,777.8,100.0,45.37,1
168.9,42.2,124.3,158.3,10.8,1080.8,796.2,3.0,7.4,1
290.4,0.0,96.2,168.1,9.4,961.2,865.0,14.0,34.67,1
277.1,0.0,97.4,160.6,11.8,973.9,875.6,28.0,48.28,1
295.7,0.0,95.6,171.5,8.9,955.1,859.2,56.0,48.72,1
251.8,0.0,99.9,146.1,12.4,1006.0,899.8,100.0,45.37,1
252.3,0.0,98.8,146.3,14.2,987.8,889.0,3.0,21.78,1
246.8,0.0,125.1,143.3,12.0,1086.8,800.9,14.0,42.22,1
275.1,0.0,121.4,159.5,9.9,1053.6,777.5,28.0,51.33,1
297.2,0.0,117.5,174.8,9.5,1022.8,753.5,56.0,51.96,1
213.7,0.0,174.7,154.8,10.2,1053.5,776.4,100.0,50.08,1
277.2,97.8,24.5,160.7,11.2,1061.7,782.5,3.0,30.45,1
218.2,54.6,123.8,140.8,11.9,1075.7,792.7,14.0,35.96,1
214.9,53.8,121.9,155.6,9.6,1014.3,780.6,28.0,52.2,1
218.9,0.0,124.1,158.5,11.3,1078.7,794.9,56.0,37.27,1
376.0,0.0,0.0,214.6,0.0,1003.5,762.4,100.0,43.06,0
516.0,0.0,0.0,162.0,8.2,801.0,802.0,28.0,41.37,0
450.1,50.0,0.0,200.0,3.0,1124.4,613.2,28.0,39.38,0
516.0,0.0,0.0,162.0,8.3,801.0,802.0,28.0,41.37,0
285.0,190.0,0.0,163.0,7.6,1031.0,685.0,28.0,53.58,2
178.0,129.8,118.6,179.9,3.6,1007.3,746.8,3.0,20.73,2
190.3,0.0,125.2,166.6,9.9,1079.0,798.9,3.0,12.55,1
165.0,128.5,132.1,175.1,8.1,1005.8,746.6,14.0,33.09,2
173.8,93.4,159.9,172.3,9.7,1007.2,746.6,14.0,29.55,1
165.0,0.0,143.6,163.8,0.0,1005.6,900.9,28.0,26.2,1
167.0,75.4,167.0,164.0,7.9,1007.3,770.1,28.0,41.41,1
251.4,0.0,118.3,192.9,5.8,1043.6,754.3,28.0,33.27,1
173.5,50.1,173.5,164.8,6.5,1006.2,793.5,56.0,53.77,1
194.7,0.0,100.5,170.2,7.5,998.0,901.8,56.0,43.39,1
172.4,13.6,172.4,156.8,4.1,1006.3,856.4,100.0,37.68,1
213.5,0.0,174.2,159.2,11.7,1043.6,771.9,100.0,52.96,1
446.0,24.0,79.0,162.0,10.3,967.0,712.0,28.0,53.39,0
446.0,24.0,79.0,162.0,11.6,967.0,712.0,7.0,39.3,0
387.0,20.0,94.0,157.0,13.9,938.0,845.0,28.0,46.68,0
387.0,20.0,94.0,157.0,13.9,938.0,845.0,7.0,45.9,0
355.0,19.0,97.0,145.0,12.3,967.0,871.0,28.0,55.45,0
491.0,26.0,123.0,201.0,3.9,822.0,699.0,3.0,29.55,0
424.0,22.0,132.0,178.0,8.5,822.0,750.0,7.0,39.0,0
202.0,11.0,141.0,206.0,1.7,942.0,801.0,3.0,9.85,1
284.0,15.0,141.0,179.0,5.5,842.0,801.0,56.0,44.52,1
359.0,19.0,141.0,154.0,10.9,942.0,801.0,7.0,38.61,0
393.0,0.0,0.0,192.0,0.0,940.6,785.6,3.0,19.2,0
480.0,0.0,0.0,192.0,0.0,936.2,712.2,3.0,24.4,0
333.0,0.0,0.0,192.0,0.0,931.2,842.6,28.0,31.97,0
158.8,238.2,0.0,185.7,0.0,1040.6,734.3,7.0,9.62,2
272.8,181.9,0.0,185.7,0.0,1012.4,714.3,7.0,19.77,2
158.8,238.2,0.0,185.7,0.0,1040.6,734.3,28.0,21.07,2
295.8,0.0,0.0,185.7,0.0,1091.4,769.3,28.0,25.22,1
339.2,0.0,0.0,185.7,0.0,1069.2,754.3,7.0,21.18,0
170.3,155.5,0.0,185.7,0.0,1026.6,724.3,28.0,25.73,2
186.2,124.1,0.0,185.7,0.0,1083.4,764.3,7.0,8.0,2
316.1,210.7,0.0,185.7,0.0,977.0,689.3,7.0,24.44,2
339.0,0.0,0.0,197.0,0.0,968.0,781.0,14.0,27.04,0
236.0,0.0,0.0,194.0,0.0,968.0,885.0,14.0,12.84,1
277.0,0.0,0.0,191.0,0.0,968.0,856.0,28.0,25.97,1
254.0,0.0,0.0,198.0,0.0,968.0,863.0,90.0,26.94,1
307.0,0.0,0.0,193.0,0.0,968.0,812.0,28.0,27.53,0
225.0,0.0,0.0,181.0,0.0,1113.0,833.0,28.0,17.34,1
300.0,0.0,0.0,184.0,0.0,1075.0,795.0,28.0,26.85,1
250.0,0.0,0.0,182.0,0.0,1100.0,820.0,28.0,20.87,1
141.3,212.0,0.0,203.5,0.0,971.8,748.5,28.0,29.89,2
122.6,183.9,0.0,203.5,0.0,958.2,800.1,28.0,24.29,2
116.0,173.0,0.0,192.0,0.0,909.8,891.9,90.0,31.02,2
192.0,288.0,0.0,192.0,0.0,929.8,716.1,3.0,12.79,2
173.0,116.0,0.0,192.0,0.0,946.8,856.8,3.0,6.94,2
288.0,192.0,0.0,192.0,0.0,932.0,717.8,28.0,38.8,2
192.0,288.0,0.0,192.0,0.0,929.8,716.1,90.0,50.73,2
288.0,192.0,0.0,192.0,0.0,932.0,717.8,7.0,23.52,2
183.9,122.6,0.0,203.5,0.0,959.2,800.0,7.0,10.79,2
200.0,133.0,0.0,192.0,0.0,965.4,806.2,7.0,17.17,2
116.0,173.0,0.0,192.0,0.0,909.8,891.9,3.0,6.28,2
153.0,102.0,0.0,192.0,0.0,888.0,943.1,7.0,8.37,2
203.5,305.3,0.0,203.5,0.0,963.4,630.0,90.0,51.86,2
331.0,0.0,0.0,192.0,0.0,1025.0,821.0,3.0,14.31,0
349.0,0.0,0.0,192.0,0.0,1056.0,809.0,7.0,9.01,0
296.0,0.0,0.0,186.0,0.0,1090.0,769.0,7.0,18.91,1
281.0,0.0,0.0,186.0,0.0,1104.0,774.0,7.0,14.5,1
500.0,0.0,0.0,200.0,0.0,1125.0,613.0,28.0,44.09,0
540.0,0.0,0.0,173.0,0.0,1125.0,613.0,270.0,74.17,0
350.0,0.0,0.0,203.0,0.0,974.0,775.0,180.0,32.72,0
331.0,0.0,0.0,192.0,0.0,978.0,825.0,180.0,39.0,0
382.0,0.0,0.0,186.0,0.0,1111.0,784.0,7.0,11.47,0
238.0,0.0,0.0,185.0,0.0,1118.0,789.0,28.0,17.54,1
331.0,0.0,0.0,192.0,0.0,978.0,825.0,28.0,31.45,0
349.0,0.0,0.0,192.0,0.0,1047.0,806.0,360.0,42.13,0
500.0,0.0,0.0,200.0,0.0,1125.0,613.0,270.0,55.16,0
393.0,0.0,0.0,192.0,0.0,940.0,758.0,28.0,39.58,0
310.0,0.0,0.0,192.0,0.0,970.0,850.0,28.0,27.92,0
525.0,0.0,0.0,189.0,0.0,1125.0,613.0,14.0,48.4,0
322.0,0.0,0.0,203.0,0.0,974.0,800.0,180.0,29.59,0
273.0,105.0,82.0,210.0,9.0,904.0,680.0,28.0,37.17,2
144.0,0.0,175.0,158.0,18.0,943.0,844.0,28.0,15.42,1
305.0,0.0,100.0,196.0,10.0,959.0,705.0,28.0,30.12,0
280.0,129.0,100.0,172.0,9.0,825.0,805.0,28.0,52.82,2
318.0,0.0,126.0,210.0,6.0,861.0,737.0,28.0,40.06,0
164.0,0.0,200.0,181.0,13.0,849.0,846.0,28.0,15.09,1
265.0,111.0,86.0,195.0,6.0,833.0,790.0,28.0,41.54,2
159.0,187.0,0.0,176.0,11.0,990.0,789.0,28.0,32.76,2
296.0,0.0,107.0,221.0,11.0,819.0,778.0,28.0,31.42,0
149.0,236.0,0.0,176.0,13.0,847.0,893.0,28.0,32.96,2
262.0,111.0,86.0,195.0,5.0,895.0,733.0,28.0,33.72,2
260.0,101.0,78.0,171.0,10.0,936.0,763.0,28.0,49.77,2
144.0,170.0,133.0,192.0,8.0,814.0,805.0,28.0,29.87,2
314.0,145.0,113.0,179.0,8.0,869.0,690.0,28.0,46.23,2
298.0,0.0,107.0,164.0,13.0,953.0,784.0,28.0,35.86,1
313.0,0.0,0.0,178.0,8.0,1000.0,822.0,28.0,25.1,0
164.0,163.0,128.0,197.0,8.0,961.0,641.0,28.0,27.23,2
144.0,15.0,195.0,176.0,6.0,1021.0,709.0,28.0,15.34,1
313.3,0.0,113.0,178.5,8.0,1001.9,688.7,28.0,36.8,0
151.6,0.0,111.9,184.4,7.9,992.0,815.9,28.0,12.18,1
148.1,0.0,136.6,158.1,16.1,1001.8,830.1,28.0,17.96,1
272.6,0.0,89.6,198.7,10.6,931.3,762.2,28.0,32.25,1
336.5,0.0,0.0,181.9,3.4,985.8,816.8,28.0,44.87,0
154.8,183.4,0.0,193.3,9.1,877.2,867.7,28.0,23.79,2
143.8,136.3,106.2,178.1,7.5,941.5,774.3,28.0,26.15,2
289.0,133.7,0.0,194.9,5.5,924.1,760.1,28.0,46.25,2
255.3,98.8,77.0,188.6,6.5,919.0,749.3,28.0,33.8,2
309.9,142.8,111.2,167.8,22.1,913.9,651.2,28.0,38.22,2
310.0,142.8,0.0,167.9,10.0,914.3,804.0,28.0,45.3,2
366.0,187.0,0.0,191.3,6.6,824.3,756.9,28.0,65.91,2
298.1,0.0,107.0,186.4,6.1,879.0,815.2,28.0,42.64,1
322.5,148.6,0.0,185.8,8.5,951.0,709.5,28.0,52.43,2
298.2,0.0,107.0,209.7,11.1,879.6,744.2,28.0,31.88,0
148.5,139.4,108.6,192.7,6.1,892.4,780.0,28.0,23.7,2
260.9,100.5,78.3,200.6,8.6,864.5,761.5,28.0,32.4,2